{
  "resourceType": "Bundle",
  "type": "transaction",
  "entry": [
    {
      "fullUrl": "urn:uuid:patient-20252024",
      "resource": {
        "resourceType": "Patient",
        "id": "patient-20252024",
        "identifier": [
          {
            "system": "http://hospital.org/cedula",
            "value": "20252024"
          },
          {
            "system": "http://hospital.org/coddactilar",
            "value": "V2024"
          }
        ],
        "name": [
          {
            "use": "official",
            "family": "GARCIA MORENO",
            "given": [
              "Josue"
            ]
          }
        ],
        "gender": "female"
      },
      "request": {
        "method": "POST",
        "url": "Patient"
      }
    },
    {
      "fullUrl": "urn:uuid:encounter-20252024-1",
      "resource": {
        "resourceType": "Encounter",
        "id": "encounter-20252024-1",
        "status": "finished",
        "class": {
          "system": "http://terminology.hl7.org/CodeSystem/v3-ActCode",
          "code": "AMB"
        },
        "subject": {
          "reference": "urn:uuid:patient-20252024"
        },
        "reasonCode": [
          {
            "coding": [
              {
                "system": "http://snomed.info/sct",
                "code": "35489007",
                "display": "Depressive disorder"
              }
            ],
            "text": "Control de salud debido a cuadro depresivo"
          }
        ],
        "period": {
          "start": "2025-09-26T00:12:38.922338"
        }
      },
      "request": {
        "method": "POST",
        "url": "Encounter"
      }
    },
    {
      "fullUrl": "urn:uuid:condition-20252024-1",
      "resource": {
        "resourceType": "Condition",
        "id": "condition-20252024-1",
        "clinicalStatus": {
          "coding": [
            {
              "system": "http://terminology.hl7.org/CodeSystem/condition-clinical",
              "code": "active"
            }
          ]
        },
        "verificationStatus": {
          "coding": [
            {
              "system": "http://terminology.hl7.org/CodeSystem/condition-ver-status",
              "code": "confirmed"
            }
          ]
        },
        "code": {
          "coding": [
            {
              "system": "http://snomed.info/sct",
              "code": "35489007",
              "display": "Depressive disorder"
            }
          ],
          "text": "Trastorno depresivo de la conducta"
        },
        "subject": {
          "reference": "urn:uuid:patient-20252024"
        },
        "encounter": {
          "reference": "urn:uuid:encounter-20252024-1"
        }
      },
      "request": {
        "method": "POST",
        "url": "Condition"
      }
    },
    {
      "fullUrl": "urn:uuid:medication-20252024-1",
      "resource": {
        "resourceType": "MedicationRequest",
        "id": "medication-20252024-1",
        "status": "active",
        "intent": "order",
        "medicationCodeableConcept": {
          "coding": [
            {
              "system": "http://www.whocc.no/atc",
              "code": "N05AX08",
              "display": "Risperidone"
            }
          ],
          "text": "Risperidona (1mg/mL), 8 gotas cada 12 horas por 30 días"
        },
        "subject": {
          "reference": "urn:uuid:patient-20252024"
        },
        "encounter": {
          "reference": "urn:uuid:encounter-20252024-1"
        },
        "authoredOn": "2025-09-26",
        "dosageInstruction": [
          {
            "text": "Risperidona (1mg/mL), 8 gotas cada 12 horas por 30 días"
          }
        ]
      },
      "request": {
        "method": "POST",
        "url": "MedicationRequest"
      }
    },
    {
      "fullUrl": "urn:uuid:careplan-20252024-1",
      "resource": {
        "resourceType": "CarePlan",
        "id": "careplan-20252024-1",
        "status": "active",
        "intent": "plan",
        "subject": {
          "reference": "urn:uuid:patient-20252024"
        },
        "encounter": {
          "reference": "urn:uuid:encounter-20252024-1"
        },
        "description": "Higiene personal, orientación nutricional, actividad física, interconsulta con psicología, seguimiento médico"
      },
      "request": {
        "method": "POST",
        "url": "CarePlan"
      }
    },
    {
      "fullUrl": "urn:uuid:observation-20252024-1",
      "resource": {
        "resourceType": "Observation",
        "id": "observation-20252024-1",
        "status": "final",
        "code": {
          "text": "Evolución clínica"
        },
        "subject": {
          "reference": "urn:uuid:patient-20252024"
        },
        "encounter": {
          "reference": "urn:uuid:encounter-20252024-1"
        },
        "valueString": "Se observa ligera mejora con terapia inicial y monitoreo familiar"
      },
      "request": {
        "method": "POST",
        "url": "Observation"
      }
    }
  ]
}