{
  "resourceType": "Bundle",
  "type": "transaction-response",
  "entry": [
    {
      "resource": {
        "resourceType": "Patient",
        "id": "8500e97d-d79c-4e43-90ab-148aa1652f93",
        "meta": {
          "versionId": "1",
          "lastUpdated": "2025-09-26T05:17:24.315+00:00"
        },
        "identifier": [
          {
            "system": "http://hospital.org/cedula",
            "value": "20252024"
          },
          {
            "system": "http://hospital.org/coddactilar",
            "value": "V2024"
          }
        ],
        "name": [
          {
            "use": "official",
            "family": "GARCIA MORENO",
            "given": [
              "Josue"
            ]
          }
        ],
        "gender": "female"
      },
      "response": {
        "status": "201",
        "location": "https://fhirworkspace593-fhirservice.fhir.azurehealthcareapis.com/Patient/8500e97d-d79c-4e43-90ab-148aa1652f93/_history/1",
        "etag": "W/\"1\"",
        "lastModified": "2025-09-26T05:17:24+00:00"
      }
    },
    {
      "resource": {
        "resourceType": "Encounter",
        "id": "e8855dc7-81c4-467f-b2a2-ee5b13cd8503",
        "meta": {
          "versionId": "1",
          "lastUpdated": "2025-09-26T05:17:24.347+00:00"
        },
        "status": "finished",
        "class": {
          "system": "http://terminology.hl7.org/CodeSystem/v3-ActCode",
          "code": "AMB"
        },
        "subject": {
          "reference": "Patient/8500e97d-d79c-4e43-90ab-148aa1652f93"
        },
        "period": {
          "start": "2025-09-26T00:12:38.922338"
        },
        "reasonCode": [
          {
            "coding": [
              {
                "system": "http://snomed.info/sct",
                "code": "35489007",
                "display": "Depressive disorder"
              }
            ],
            "text": "Control de salud debido a cuadro depresivo"
          }
        ]
      },
      "response": {
        "status": "201",
        "location": "https://fhirworkspace593-fhirservice.fhir.azurehealthcareapis.com/Encounter/e8855dc7-81c4-467f-b2a2-ee5b13cd8503/_history/1",
        "etag": "W/\"1\"",
        "lastModified": "2025-09-26T05:17:24+00:00"
      }
    },
    {
      "resource": {
        "resourceType": "Condition",
        "id": "eb04e86d-7925-41d1-9788-31fa9a4cf73d",
        "meta": {
          "versionId": "1",
          "lastUpdated": "2025-09-26T05:17:24.378+00:00"
        },
        "clinicalStatus": {
          "coding": [
            {
              "system": "http://terminology.hl7.org/CodeSystem/condition-clinical",
              "code": "active"
            }
          ]
        },
        "verificationStatus": {
          "coding": [
            {
              "system": "http://terminology.hl7.org/CodeSystem/condition-ver-status",
              "code": "confirmed"
            }
          ]
        },
        "code": {
          "coding": [
            {
              "system": "http://snomed.info/sct",
              "code": "35489007",
              "display": "Depressive disorder"
            }
          ],
          "text": "Trastorno depresivo de la conducta"
        },
        "subject": {
          "reference": "Patient/8500e97d-d79c-4e43-90ab-148aa1652f93"
        },
        "encounter": {
          "reference": "Encounter/e8855dc7-81c4-467f-b2a2-ee5b13cd8503"
        }
      },
      "response": {
        "status": "201",
        "location": "https://fhirworkspace593-fhirservice.fhir.azurehealthcareapis.com/Condition/eb04e86d-7925-41d1-9788-31fa9a4cf73d/_history/1",
        "etag": "W/\"1\"",
        "lastModified": "2025-09-26T05:17:24+00:00"
      }
    },
    {
      "resource": {
        "resourceType": "MedicationRequest",
        "id": "39280c82-9aee-4c30-a34f-e7875b68a23b",
        "meta": {
          "versionId": "1",
          "lastUpdated": "2025-09-26T05:17:24.409+00:00"
        },
        "status": "active",
        "intent": "order",
        "medicationCodeableConcept": {
          "coding": [
            {
              "system": "http://www.whocc.no/atc",
              "code": "N05AX08",
              "display": "Risperidone"
            }
          ],
          "text": "Risperidona (1mg/mL), 8 gotas cada 12 horas por 30 días"
        },
        "subject": {
          "reference": "Patient/8500e97d-d79c-4e43-90ab-148aa1652f93"
        },
        "encounter": {
          "reference": "Encounter/e8855dc7-81c4-467f-b2a2-ee5b13cd8503"
        },
        "authoredOn": "2025-09-26",
        "dosageInstruction": [
          {
            "text": "Risperidona (1mg/mL), 8 gotas cada 12 horas por 30 días"
          }
        ]
      },
      "response": {
        "status": "201",
        "location": "https://fhirworkspace593-fhirservice.fhir.azurehealthcareapis.com/MedicationRequest/39280c82-9aee-4c30-a34f-e7875b68a23b/_history/1",
        "etag": "W/\"1\"",
        "lastModified": "2025-09-26T05:17:24+00:00"
      }
    },
    {
      "resource": {
        "resourceType": "CarePlan",
        "id": "ab71d17a-ca03-4911-91cd-597faf875aa3",
        "meta": {
          "versionId": "1",
          "lastUpdated": "2025-09-26T05:17:24.44+00:00"
        },
        "status": "active",
        "intent": "plan",
        "description": "Higiene personal, orientación nutricional, actividad física, interconsulta con psicología, seguimiento médico",
        "subject": {
          "reference": "Patient/8500e97d-d79c-4e43-90ab-148aa1652f93"
        },
        "encounter": {
          "reference": "Encounter/e8855dc7-81c4-467f-b2a2-ee5b13cd8503"
        }
      },
      "response": {
        "status": "201",
        "location": "https://fhirworkspace593-fhirservice.fhir.azurehealthcareapis.com/CarePlan/ab71d17a-ca03-4911-91cd-597faf875aa3/_history/1",
        "etag": "W/\"1\"",
        "lastModified": "2025-09-26T05:17:24+00:00"
      }
    },
    {
      "resource": {
        "resourceType": "Observation",
        "id": "213fff21-7827-4009-859a-89da7f088cb5",
        "meta": {
          "versionId": "1",
          "lastUpdated": "2025-09-26T05:17:24.456+00:00"
        },
        "status": "final",
        "code": {
          "text": "Evolución clínica"
        },
        "subject": {
          "reference": "Patient/8500e97d-d79c-4e43-90ab-148aa1652f93"
        },
        "encounter": {
          "reference": "Encounter/e8855dc7-81c4-467f-b2a2-ee5b13cd8503"
        },
        "valueString": "Se observa ligera mejora con terapia inicial y monitoreo familiar"
      },
      "response": {
        "status": "201",
        "location": "https://fhirworkspace593-fhirservice.fhir.azurehealthcareapis.com/Observation/213fff21-7827-4009-859a-89da7f088cb5/_history/1",
        "etag": "W/\"1\"",
        "lastModified": "2025-09-26T05:17:24+00:00"
      }
    }
  ]
}